Data from Relative__16__14-43-31-423.txt Node

Date: Thu Jun 26 14:43:31 BST 2025
User: Jamie
Spectrometer: HDX00312
Trigger mode: 0
Integration Time (sec): 1.000000E-1
Scans to average: 1
Nonlinearity correction enabled: true
Boxcar width: 0
Storing dark spectrum: false
XAxis mode: Wavelengths
Number of Pixels in Spectrum: 2068
>>>>>Begin Spectral Data<<<<<
196.211	-56.24826
196.582	-949.97481
196.954	-199.99924
197.325	-1199.98032
197.696	79.3973
198.067	73.09962
198.438	74.90625
198.809	64.77351
199.18	62.30941
199.551	63.30022
199.922	62.16116
200.293	65.52535
200.663	67.47178
201.034	69.18837
201.404	67.32858
201.774	61.37266
202.144	64.69926
202.515	62.5095
202.885	60.18702
203.255	65.60352
203.625	64.94373
203.994	52.68893
204.364	73.04851
204.734	61.05661
205.103	66.67557
205.473	60.58174
205.842	60.06918
206.212	64.447
206.581	66.04655
206.95	65.53684
207.319	58.29415
207.688	66.67557
208.057	62.54734
208.426	64.05776
208.795	68.79986
209.163	65.80656
209.532	58.69996
209.9	68.20447
210.269	67.78002
210.637	58.68088
211.005	65.79897
211.374	58.6311
211.742	59.26971
212.11	60.92976
212.478	58.88584
212.846	67.65623
213.213	67.35623
213.581	59.39436
213.949	62.41084
214.316	63.56664
214.684	58.24919
215.051	56.83536
215.418	62.41084
215.786	57.48591
216.153	63.16826
216.52	55.07666
216.887	53.29253
217.254	56.14739
217.62	57.85536
217.987	54.47048
218.354	58.79701
218.72	52.95419
219.087	48.17065
219.453	51.92927
219.819	47.95723
220.186	50.0157
220.552	46.19914
220.918	42.42949
221.284	40.98602
221.65	45.84781
222.016	41.57022
222.381	40.38471
222.747	37.26357
223.113	34.68199
223.478	32.40278
223.844	35.02918
224.209	32.79626
224.574	33.77835
224.939	32.17392
225.304	31.31702
225.669	31.77074
226.034	27.96736
226.399	26.02393
226.764	27.52915
227.129	25.77655
227.493	27.62721
227.858	26.4707
228.222	25.73466
228.587	25.80913
228.951	26.50144
229.315	25.87686
229.679	23.49735
230.043	26.10727
230.407	25.77788
230.771	24.95902
231.135	25.9056
231.499	25.99203
231.862	24.62818
232.226	24.54166
232.589	25.93917
232.953	25.53111
233.316	24.30735
233.679	25.90615
234.042	25.80368
234.405	25.61058
234.768	25.7547
235.131	25.62718
235.494	26.54426
235.857	25.84857
236.22	25.55611
236.582	25.79483
236.945	26.67295
237.307	26.33045
237.669	26.68585
238.032	26.39002
238.394	26.46269
238.756	26.1471
239.118	26.00456
239.48	25.9431
239.842	26.80379
240.204	27.35282
240.565	26.47664
240.927	27.10883
241.288	27.15333
241.65	27.18597
242.011	27.17487
242.373	27.52332
242.734	26.99732
243.095	27.29954
243.456	26.75453
243.817	27.29487
244.178	27.24663
244.539	27.17174
244.899	27.42097
245.26	27.45622
245.621	26.20655
245.981	27.04863
246.341	27.10652
246.702	27.27442
247.062	26.93387
247.422	26.70678
247.782	27.03953
248.142	26.83034
248.502	27.00443
248.862	26.48781
249.222	27.22688
249.582	26.89757
249.941	27.10069
250.301	26.98747
250.66	26.67204
251.02	26.89055
251.379	26.71617
251.738	26.79774
252.097	26.77654
252.456	26.2822
252.815	26.90472
253.174	26.47803
253.533	26.75883
253.892	27.19443
254.25	26.33516
254.609	27.00562
254.967	26.66173
255.326	26.79847
255.684	27.09921
256.042	26.94607
256.4	26.81909
256.759	27.18182
257.117	26.95994
257.474	26.90165
257.832	27.22119
258.19	27.00033
258.548	26.9284
258.905	27.43347
259.263	27.30626
259.62	27.82958
259.978	27.2866
260.335	27.50908
260.692	27.76191
261.049	27.65646
261.406	28.32653
261.763	27.93681
262.12	28.32623
262.477	28.47034
262.834	29.05587
263.19	28.53927
263.547	28.74244
263.904	28.92356
264.26	29.48588
264.616	29.50344
264.973	29.84872
265.329	29.67564
265.685	30.75635
266.041	30.89622
266.397	30.82402
266.753	31.1822
267.108	31.75351
267.464	32.17423
267.82	31.80239
268.175	31.52728
268.531	32.58679
268.886	32.44512
269.241	32.67273
269.597	33.34328
269.952	33.70052
270.307	34.14784
270.662	34.09833
271.017	34.4374
271.371	34.52597
271.726	34.82463
272.081	35.22638
272.435	34.57406
272.79	35.4859
273.144	34.63502
273.499	34.93022
273.853	35.36943
274.207	36.11941
274.561	35.53993
274.915	36.05018
275.269	36.26932
275.623	36.49161
275.977	36.30312
276.331	37.13011
276.684	37.07287
277.038	36.78372
277.391	37.59138
277.745	36.61194
278.098	37.6665
278.451	37.27199
278.804	37.6408
279.157	37.30631
279.51	37.96113
279.863	37.67599
280.216	37.72363
280.569	37.47201
280.922	38.16285
281.274	38.75851
281.627	38.41496
281.979	38.56493
282.332	38.98863
282.684	39.62566
283.036	39.19219
283.388	39.05128
283.74	39.15375
284.092	39.01591
284.444	38.87129
284.796	39.51668
285.148	39.01023
285.499	39.68654
285.851	39.58825
286.202	39.48495
286.554	39.62789
286.905	39.89251
287.257	39.51221
287.608	40.15023
287.959	39.42391
288.31	39.7308
288.661	39.84469
289.012	39.50749
289.362	39.7475
289.713	39.48634
290.064	39.75876
290.414	40.22819
290.765	40.6922
291.115	39.93799
291.466	39.88613
291.816	40.45467
292.166	39.72929
292.516	40.38863
292.866	40.46667
293.216	40.87586
293.566	40.52303
293.916	40.42064
294.265	40.5842
294.615	41.02903
294.964	41.11022
295.314	40.75908
295.663	40.52599
296.013	40.7357
296.362	41.28619
296.711	40.91229
297.06	41.04144
297.409	41.28559
297.758	41.22431
298.107	41.12808
298.455	41.13219
298.804	40.71577
299.153	40.28617
299.501	41.01671
299.85	40.50719
300.198	40.05188
300.546	40.56088
300.894	40.29878
301.243	40.44559
301.591	40.87297
301.939	40.74614
302.287	40.71533
302.634	40.33782
302.982	40.74551
303.33	41.11952
303.677	40.42772
304.025	40.52113
304.372	41.11369
304.72	41.0346
305.067	40.74399
305.414	40.89363
305.761	40.72186
306.108	40.82767
306.455	40.64954
306.802	40.62898
307.149	40.81491
307.495	40.56673
307.842	40.31032
308.189	40.58486
308.535	40.45554
308.882	40.36977
309.228	40.48578
309.574	40.62501
309.92	40.06577
310.266	40.05005
310.612	40.12081
310.958	40.16728
311.304	40.32325
311.65	39.8723
311.996	40.5758
312.341	40.09676
312.687	40.53896
313.032	40.54334
313.378	40.37305
313.723	40.53211
314.068	40.28765
314.413	39.84147
314.759	40.78009
315.104	40.05752
315.449	40.52812
315.793	40.5099
316.138	40.41007
316.483	40.47815
316.827	40.49243
317.172	40.72482
317.516	40.08367
317.861	40.5601
318.205	39.87082
318.549	40.79543
318.894	40.02785
319.238	40.60315
319.582	41.50718
319.926	40.85503
320.269	40.61116
320.613	40.34797
320.957	40.42229
321.3	40.93561
321.644	40.95496
321.987	41.00784
322.331	40.82056
322.674	40.48594
323.017	40.98126
323.36	40.41561
323.704	41.08479
324.047	40.68355
324.389	40.77917
324.732	40.84345
325.075	41.1126
325.418	40.77121
325.76	41.07056
326.103	41.19681
326.445	41.48514
326.788	41.40474
327.13	41.22032
327.472	41.04164
327.814	41.49011
328.156	41.18206
328.498	41.45117
328.84	41.93968
329.182	41.73869
329.524	41.43213
329.866	42.00715
330.207	41.62101
330.549	42.10936
330.89	41.15697
331.231	41.66255
331.573	41.64181
331.914	41.37987
332.255	41.49072
332.596	41.80318
332.937	41.5504
333.278	41.38889
333.619	41.19772
333.96	41.05456
334.3	41.79372
334.641	41.3551
334.981	41.2428
335.322	41.62647
335.662	41.32307
336.003	41.0414
336.343	41.4383
336.683	41.40228
337.023	41.72834
337.363	41.84015
337.703	41.31482
338.043	41.37691
338.382	41.20652
338.722	41.57165
339.062	41.37772
339.401	41.5648
339.741	41.42463
340.08	41.37678
340.419	41.21762
340.759	41.29599
341.098	41.40262
341.437	41.65178
341.776	41.86347
342.115	41.75271
342.454	41.48258
342.792	41.39979
343.131	41.44887
343.47	41.59569
343.808	41.72641
344.147	42.3831
344.485	42.15734
344.823	41.96168
345.162	42.05129
345.5	41.63702
345.838	41.90219
346.176	42.39199
346.514	41.74018
346.851	41.26196
347.189	42.27414
347.527	42.01458
347.865	42.62353
348.202	42.33327
348.54	42.84782
348.877	42.46585
349.214	42.16963
349.551	42.49785
349.889	42.60918
350.226	43.23123
350.563	43.28191
350.9	42.67542
351.236	43.00421
351.573	42.60327
351.91	43.09164
352.247	42.68203
352.583	42.74682
352.92	42.30036
353.256	42.87985
353.592	42.34437
353.929	42.43241
354.265	42.96992
354.601	41.94609
354.937	42.62097
355.273	42.35431
355.609	42.30052
355.944	42.43822
356.28	42.13445
356.616	42.73188
356.951	42.34289
357.287	42.60422
357.622	42.84787
357.957	43.1962
358.293	42.57476
358.628	42.41929
358.963	42.08017
359.298	42.4152
359.633	42.52696
359.968	42.93313
360.303	42.48086
360.637	42.40932
360.972	43.25742
361.307	42.89944
361.641	42.43027
361.975	42.05024
362.31	42.10498
362.644	42.06085
362.978	42.23614
363.312	42.41371
363.646	42.5874
363.98	43.03249
364.314	43.31138
364.648	42.8478
364.982	43.00634
365.315	43.1514
365.649	42.10478
365.983	42.95333
366.316	42.16378
366.649	42.71502
366.983	42.29869
367.316	42.6471
367.649	43.49439
367.982	42.5626
368.315	43.14169
368.648	42.10127
368.981	43.0897
369.313	43.03736
369.646	42.20782
369.979	43.40025
370.311	43.11784
370.644	43.01342
370.976	42.61509
371.308	42.60774
371.641	43.18111
371.973	43.27065
372.305	42.98222
372.637	42.78786
372.969	43.11876
373.301	43.3001
373.632	42.80519
373.964	43.24149
374.296	42.00183
374.627	42.49548
374.959	42.64421
375.29	42.88689
375.621	42.18255
375.953	42.06706
376.284	43.28768
376.615	42.48487
376.946	43.42575
377.277	42.26542
377.608	42.50135
377.939	42.46071
378.269	42.25632
378.6	42.93746
378.931	41.97423
379.261	42.76726
379.591	42.68981
379.922	42.63196
380.252	42.25491
380.582	42.977
380.912	43.11459
381.242	42.36582
381.572	42.55586
381.902	42.47906
382.232	42.62741
382.562	42.49488
382.891	42.71747
383.221	41.85242
383.551	43.37933
383.88	43.09927
384.209	43.7295
384.539	42.66963
384.868	42.69261
385.197	43.3775
385.526	42.89152
385.855	42.40518
386.184	42.47208
386.513	42.7623
386.842	43.39008
387.17	43.09109
387.499	42.35278
387.828	42.68175
388.156	42.04371
388.484	42.70605
388.813	43.22075
389.141	42.36049
389.469	42.89464
389.797	42.45805
390.125	42.3812
390.453	43.11235
390.781	42.63418
391.109	42.57923
391.437	42.47485
391.764	42.1952
392.092	43.28077
392.419	43.16001
392.747	42.27855
393.074	42.54915
393.401	42.40195
393.729	42.59203
394.056	42.01656
394.383	42.9693
394.71	42.70563
395.037	42.93637
395.363	42.6294
395.69	42.57059
396.017	43.12774
396.344	42.19293
396.67	42.33217
396.997	42.29388
397.323	42.50223
397.649	42.30961
397.975	42.26464
398.302	42.53988
398.628	42.1386
398.954	42.77317
399.28	42.8763
399.606	42.49295
399.931	42.93027
400.257	42.48426
400.583	42.4241
400.908	42.72363
401.234	42.62658
401.559	42.74785
401.884	42.66347
402.21	42.63493
402.535	42.38165
402.86	42.48766
403.185	42.78716
403.51	42.21909
403.835	42.9277
404.16	43.15186
404.485	42.70119
404.809	42.7558
405.134	43.31161
405.458	43.28665
405.783	42.43176
406.107	43.04523
406.432	43.08877
406.756	43.28889
407.08	43.63165
407.404	42.59505
407.728	42.89977
408.052	43.25014
408.376	42.83503
408.7	43.94921
409.023	43.43115
409.347	43.08318
409.671	43.78523
409.994	43.30219
410.317	42.6927
410.641	43.4602
410.964	42.70855
411.287	43.579
411.61	42.92117
411.933	43.12858
412.256	43.60787
412.579	43.44921
412.902	43.19262
413.225	42.79912
413.548	43.27275
413.87	43.71358
414.193	43.06105
414.515	43.26546
414.838	42.79393
415.16	42.74834
415.482	43.36994
415.804	43.00129
416.126	43.01249
416.448	42.62819
416.77	43.2271
417.092	43.08814
417.414	43.55857
417.736	42.80768
418.057	43.22074
418.379	42.59335
418.701	42.72763
419.022	42.04168
419.343	42.99535
419.665	43.66122
419.986	43.31797
420.307	42.76195
420.628	42.86878
420.949	42.60769
421.27	42.83082
421.591	42.77127
421.912	42.95083
422.232	43.69228
422.553	43.53502
422.873	42.93355
423.194	43.31393
423.514	43.39381
423.835	42.19906
424.155	42.80441
424.475	42.85185
424.795	42.85502
425.115	42.94082
425.435	43.40422
425.755	43.78892
426.075	43.68754
426.395	42.74243
426.714	43.05431
427.034	43.82879
427.354	44.22158
427.673	43.70304
427.992	44.69856
428.312	44.36843
428.631	43.81945
428.95	44.26445
429.269	43.79925
429.588	43.74489
429.907	44.13215
430.226	43.88962
430.545	44.53435
430.864	44.36884
431.182	44.15948
431.501	44.13392
431.819	43.79964
432.138	43.98938
432.456	43.27179
432.774	44.54741
433.093	44.75279
433.411	44.38506
433.729	43.42302
434.047	45.14029
434.365	44.53264
434.683	44.30928
435	44.26794
435.318	43.80395
435.636	44.11261
435.953	44.0387
436.271	43.80764
436.588	43.96497
436.906	44.13979
437.223	44.13289
437.54	43.64364
437.857	43.83314
438.174	43.95328
438.491	44.19201
438.808	44.90383
439.125	43.70642
439.442	43.26115
439.758	44.8439
440.075	44.55786
440.392	43.84424
440.708	44.20438
441.024	43.10031
441.341	44.5899
441.657	44.39176
441.973	44.23246
442.289	44.4696
442.605	44.25601
442.921	44.58522
443.237	44.93644
443.553	44.31593
443.869	44.01771
444.184	44.20497
444.5	44.50914
444.816	44.58852
445.131	44.36916
445.446	43.46352
445.762	43.49309
446.077	44.06167
446.392	44.8057
446.707	43.64438
447.022	44.00652
447.337	43.87949
447.652	45.256
447.967	43.68287
448.282	44.5224
448.596	44.33733
448.911	45.64986
449.225	44.01486
449.54	44.22771
449.854	45.33541
450.169	44.62269
450.483	43.19885
450.797	44.743
451.111	44.69411
451.425	44.54969
451.739	44.9394
452.053	45.21803
452.367	44.64245
452.68	44.36797
452.994	43.79754
453.308	44.76351
453.621	44.29285
453.935	44.38086
454.248	43.02944
454.561	43.97483
454.874	44.01956
455.188	44.7125
455.501	45.34082
455.814	45.5522
456.127	46.0143
456.44	45.82379
456.752	44.37341
457.065	44.93365
457.378	44.21937
457.69	45.68177
458.003	45.41974
458.315	45.96751
458.628	44.74992
458.94	45.50316
459.252	45.76668
459.564	44.50066
459.876	44.87991
460.188	45.80167
460.5	44.32849
460.812	45.32932
461.124	45.11065
461.436	45.19665
461.747	44.67263
462.059	44.22597
462.37	45.68136
462.682	44.6821
462.993	44.84247
463.304	43.80103
463.616	44.81926
463.927	45.31997
464.238	44.51175
464.549	44.43597
464.86	44.7485
465.171	45.11844
465.481	45.76623
465.792	44.63668
466.103	45.24044
466.413	46.07674
466.724	44.71332
467.034	43.92203
467.345	45.59918
467.655	44.97506
467.965	44.26463
468.275	44.3168
468.585	45.17213
468.895	44.28505
469.205	44.66716
469.515	44.83705
469.825	45.37567
470.135	45.21326
470.444	44.62477
470.754	44.48086
471.063	44.8951
471.373	44.2448
471.682	45.46859
471.991	45.67305
472.301	44.82023
472.61	44.80444
472.919	46.07771
473.228	45.92803
473.537	45.11786
473.846	45.15615
474.155	45.64803
474.463	44.57045
474.772	44.19797
475.08	44.89222
475.389	45.33237
475.697	44.793
476.006	45.14463
476.314	44.80442
476.622	45.66551
476.93	44.47643
477.239	45.67662
477.547	45.31815
477.855	44.54469
478.162	44.71191
478.47	45.32028
478.778	44.63377
479.086	45.62463
479.393	44.75464
479.701	45.22824
480.008	45.09806
480.315	45.18157
480.623	44.78289
480.93	45.21457
481.237	45.20057
481.544	44.83353
481.851	45.67663
482.158	45.27793
482.465	45.63572
482.772	44.74038
483.079	45.29337
483.385	45.43148
483.692	45.3079
483.998	45.4347
484.305	45.19254
484.611	45.4923
484.918	45.26358
485.224	44.72696
485.53	45.62604
485.836	44.93882
486.142	44.32575
486.448	45.37707
486.754	45.12489
487.06	45.01106
487.366	45.31475
487.671	44.63983
487.977	44.85484
488.282	45.02124
488.588	45.05229
488.893	44.99975
489.199	44.86481
489.504	45.09033
489.809	44.91303
490.114	45.40509
490.419	45.01364
490.724	44.9335
491.029	44.92846
491.334	45.32782
491.639	44.64827
491.943	44.91984
492.248	45.76456
492.553	45.47522
492.857	45.29254
493.162	45.56244
493.466	45.21119
493.77	44.93382
494.074	45.98587
494.378	45.46911
494.683	44.51162
494.987	45.03304
495.29	45.02151
495.594	46.00504
495.898	44.80379
496.202	44.95909
496.505	44.79161
496.809	46.15793
497.113	44.9804
497.416	46.20212
497.719	45.50939
498.023	45.65113
498.326	45.63523
498.629	45.00157
498.932	45.22949
499.235	45.35969
499.538	45.6371
499.841	45.47757
500.144	44.99699
500.446	45.61065
500.749	45.33715
501.052	45.53536
501.354	45.8376
501.657	45.99152
501.959	45.99001
502.261	45.08557
502.564	46.20662
502.866	45.84209
503.168	45.82964
503.47	46.76015
503.772	46.23991
504.074	46.20789
504.376	46.32407
504.677	46.15597
504.979	46.02897
505.281	46.10363
505.582	45.94507
505.884	46.85404
506.185	46.06706
506.486	46.29961
506.788	46.78004
507.089	46.62695
507.39	45.36882
507.691	46.61518
507.992	46.4112
508.293	46.0688
508.594	47.12052
508.895	46.60384
509.195	46.86565
509.496	47.03123
509.797	46.39578
510.097	46.7616
510.398	46.91497
510.698	47.4163
510.998	47.0057
511.298	46.9745
511.599	46.96965
511.899	47.06732
512.199	47.36287
512.499	46.93821
512.799	47.09871
513.098	47.46777
513.398	47.33329
513.698	47.36187
513.997	48.04096
514.297	47.86311
514.596	48.08859
514.896	47.35413
515.195	49.11046
515.494	47.98595
515.794	48.22993
516.093	48.45
516.392	48.84925
516.691	47.93508
516.99	48.06032
517.288	48.94052
517.587	48.83391
517.886	48.45282
518.185	48.97506
518.483	48.40866
518.782	49.21153
519.08	49.60549
519.378	48.70371
519.677	49.32003
519.975	48.91681
520.273	49.77297
520.571	49.96864
520.869	49.2041
521.167	49.74092
521.465	49.38672
521.763	49.5078
522.061	49.93656
522.358	50.34977
522.656	49.99303
522.953	50.20191
523.251	50.23501
523.548	50.82627
523.846	50.55299
524.143	49.38545
524.44	50.87285
524.737	51.14193
525.034	51.36122
525.331	50.82233
525.628	51.04909
525.925	50.81888
526.222	51.22146
526.518	51.45942
526.815	50.49934
527.112	52.04246
527.408	50.8177
527.705	51.7019
528.001	51.6242
528.297	51.45545
528.593	51.6856
528.89	51.71267
529.186	51.4479
529.482	51.38577
529.778	51.90933
530.074	51.96137
530.369	51.87702
530.665	51.74693
530.961	52.1404
531.256	52.20296
531.552	52.20375
531.847	52.01954
532.143	52.00827
532.438	52.14135
532.733	51.65121
533.029	52.22198
533.324	52.06447
533.619	52.2092
533.914	51.71838
534.209	51.80128
534.504	52.28207
534.798	52.58798
535.093	52.09099
535.388	51.92091
535.682	52.91075
535.977	52.44401
536.271	52.31191
536.566	52.12724
536.86	52.64403
537.154	52.49321
537.448	52.39633
537.742	51.76201
538.037	52.81639
538.33	52.12182
538.624	52.57538
538.918	52.0344
539.212	52.12327
539.506	51.86625
539.799	52.39983
540.093	51.89655
540.386	52.15609
540.68	52.08314
540.973	52.45117
541.266	52.55633
541.56	52.93993
541.853	52.53197
542.146	52.33423
542.439	52.67936
542.732	52.76421
543.025	52.90776
543.318	52.72368
543.61	52.7587
543.903	52.71293
544.196	52.66559
544.488	52.87835
544.781	52.70133
545.073	52.55823
545.365	53.10856
545.658	52.46349
545.95	52.74012
546.242	52.91974
546.534	52.58135
546.826	52.73905
547.118	52.91245
547.41	53.28801
547.702	53.38395
547.993	52.79579
548.285	52.65045
548.577	52.56515
548.868	52.65741
549.16	52.44778
549.451	53.04195
549.742	53.23223
550.034	53.69704
550.325	53.13912
550.616	53.05299
550.907	53.06245
551.198	53.25793
551.489	53.25793
551.78	53.48463
552.07	53.08273
552.361	53.64275
552.652	53.44538
552.942	53.69685
553.233	53.21848
553.523	53.6567
553.814	53.38192
554.104	53.61346
554.394	53.09389
554.684	53.8805
554.975	53.50542
555.265	53.31318
555.555	52.93154
555.845	53.4452
556.134	53.24095
556.424	53.5857
556.714	52.90062
557.003	53.09146
557.293	53.93173
557.583	54.00895
557.872	53.48793
558.161	52.92778
558.451	52.90025
558.74	52.51337
559.029	53.12348
559.318	52.49101
559.607	52.92161
559.896	53.19875
560.185	52.58724
560.474	52.39281
560.763	53.50877
561.051	53.20833
561.34	53.27433
561.629	52.72391
561.917	52.50108
562.205	52.62347
562.494	52.71503
562.782	52.90529
563.07	52.49943
563.359	53.24236
563.647	52.62779
563.935	52.50695
564.223	52.7454
564.51	52.62893
564.798	52.70569
565.086	52.43172
565.374	52.70077
565.661	52.63176
565.949	52.45791
566.236	52.81099
566.524	52.46819
566.811	52.33596
567.099	52.15818
567.386	52.57304
567.673	51.75869
567.96	52.46698
568.247	51.82737
568.534	52.33622
568.821	51.33664
569.108	51.48554
569.394	51.85235
569.681	51.68982
569.968	51.65703
570.254	51.6482
570.541	51.07032
570.827	51.52981
571.114	51.48489
571.4	51.67497
571.686	51.28747
571.972	51.58591
572.258	50.88618
572.544	51.05518
572.83	51.61708
573.116	50.95011
573.402	51.41784
573.688	51.25916
573.973	51.20841
574.259	50.51304
574.545	51.13573
574.83	50.93125
575.116	51.01433
575.401	51.30294
575.686	50.93418
575.971	51.2347
576.257	50.5506
576.542	50.25268
576.827	50.56942
577.112	50.51929
577.397	50.38507
577.681	50.70639
577.966	49.91353
578.251	50.43957
578.536	50.00304
578.82	50.16346
579.105	50.74323
579.389	49.94305
579.673	50.15268
579.958	50.509
580.242	49.77129
580.526	49.93
580.81	50.37835
581.094	49.57296
581.378	50.2461
581.662	49.8986
581.946	49.89808
582.23	50.61678
582.513	50.28291
582.797	49.7642
583.081	50.10149
583.364	50.10058
583.648	49.81055
583.931	49.73811
584.214	49.91886
584.498	49.80984
584.781	49.77664
585.064	49.67015
585.347	49.70513
585.63	49.40489
585.913	49.33549
586.196	50.06902
586.478	49.57918
586.761	49.25619
587.044	50.05476
587.326	49.58553
587.609	49.66108
587.891	49.56183
588.174	49.52479
588.456	49.62018
588.738	49.57955
589.02	49.1794
589.303	49.06297
589.585	49.31918
589.867	50.02698
590.149	49.02355
590.43	49.90042
590.712	49.46786
590.994	49.56069
591.276	49.81139
591.557	49.3634
591.839	49.37567
592.12	49.15536
592.402	49.26235
592.683	48.75444
592.964	48.96935
593.245	49.01991
593.527	49.63429
593.808	49.4356
594.089	49.20512
594.37	49.08788
594.65	49.10164
594.931	48.97706
595.212	48.856
595.493	48.77254
595.773	48.80533
596.054	48.94566
596.334	49.0022
596.615	48.73946
596.895	49.24443
597.175	49.54167
597.456	48.83456
597.736	49.24621
598.016	49.60518
598.296	48.99482
598.576	49.24531
598.856	48.4344
599.136	48.92194
599.415	48.81073
599.695	48.94882
599.975	48.76672
600.254	48.76432
600.534	48.55068
600.813	48.99716
601.093	49.07883
601.372	48.89891
601.651	48.53523
601.93	48.27012
602.209	48.69497
602.488	48.56741
602.767	48.32364
603.046	48.60007
603.325	48.5746
603.604	48.38482
603.883	48.1684
604.161	48.29208
604.44	48.23806
604.718	48.25443
604.997	48.76003
605.275	48.27552
605.554	47.98728
605.832	47.85342
606.11	47.73118
606.388	47.70073
606.666	48.21912
606.944	47.83855
607.222	48.27874
607.5	48.20683
607.778	48.10546
608.056	47.81884
608.333	47.88582
608.611	47.4486
608.889	47.5257
609.166	47.92283
609.444	47.55922
609.721	47.71843
609.998	47.93612
610.275	47.84561
610.553	47.62333
610.83	47.08348
611.107	47.55259
611.384	47.94198
611.661	47.60575
611.937	47.48073
612.214	47.83675
612.491	47.61981
612.768	47.31831
613.044	47.20668
613.321	47.31867
613.597	47.45604
613.874	47.01774
614.15	46.95236
614.426	46.7998
614.702	47.06278
614.978	47.01541
615.255	47.27651
615.531	46.4248
615.806	47.16969
616.082	46.99004
616.358	47.0396
616.634	46.55769
616.91	46.65924
617.185	46.67742
617.461	46.66358
617.736	46.92576
618.012	46.3348
618.287	46.51499
618.562	46.74872
618.838	46.95818
619.113	46.5816
619.388	46.60684
619.663	47.0567
619.938	46.47608
620.213	46.14304
620.488	46.54587
620.762	46.41807
621.037	46.55022
621.312	46.26948
621.586	46.48478
621.861	46.55593
622.135	46.31105
622.41	46.41364
622.684	46.24254
622.958	46.19246
623.233	46.49371
623.507	46.66469
623.781	46.30938
624.055	46.33772
624.329	46.33165
624.603	46.19523
624.876	46.12237
625.15	46.22903
625.424	46.61144
625.698	45.91529
625.971	46.01724
626.245	46.08698
626.518	46.27708
626.791	46.30916
627.065	46.58209
627.338	45.68538
627.611	46.11838
627.884	46.263
628.157	46.20269
628.43	45.9567
628.703	46.16282
628.976	45.6788
629.249	46.15911
629.522	45.97011
629.794	46.18675
630.067	45.96783
630.339	46.05164
630.612	45.68872
630.884	45.56721
631.157	46.19329
631.429	45.50642
631.701	46.00299
631.973	45.88344
632.245	45.96635
632.518	46.09204
632.789	46.26831
633.061	45.71544
633.333	46.13144
633.605	45.60273
633.877	45.64477
634.148	45.34609
634.42	45.86985
634.691	45.2606
634.963	45.44566
635.234	45.58762
635.506	45.17451
635.777	45.39888
636.048	45.20414
636.319	45.38638
636.59	45.36567
636.861	45.33994
637.132	45.08993
637.403	45.24984
637.674	45.83526
637.945	45.29664
638.216	44.77133
638.486	45.69397
638.757	45.18326
639.027	45.36423
639.298	45.18701
639.568	44.9371
639.838	45.2313
640.109	44.86676
640.379	44.75313
640.649	44.91262
640.919	45.27811
641.189	45.22998
641.459	45.12561
641.729	44.41113
641.999	44.84733
642.269	44.65571
642.538	44.61898
642.808	44.81314
643.077	44.90956
643.347	44.61814
643.616	44.22342
643.886	44.28995
644.155	44.30199
644.424	44.69317
644.693	44.35415
644.963	44.47519
645.232	44.4161
645.501	44.08898
645.77	44.19706
646.038	44.05018
646.307	43.80794
646.576	43.57064
646.845	44.06715
647.113	43.82862
647.382	44.2701
647.65	43.78283
647.919	43.95272
648.187	43.98541
648.455	43.86049
648.724	44.09316
648.992	43.78663
649.26	43.9794
649.528	43.7844
649.796	43.7147
650.064	43.97574
650.332	43.94052
650.6	43.48444
650.867	44.32432
651.135	43.75734
651.403	43.41636
651.67	43.78645
651.938	43.72197
652.205	43.77638
652.473	43.70895
652.74	43.19386
653.007	44.20265
653.274	44.12285
653.541	43.65638
653.808	43.94247
654.075	44.10641
654.342	44.07102
654.609	44.20419
654.876	44.43705
655.143	44.45773
655.409	44.15659
655.676	44.66219
655.943	44.56533
656.209	44.62307
656.475	44.66671
656.742	44.88126
657.008	45.25016
657.274	44.98017
657.541	45.53355
657.807	45.06013
658.073	45.58569
658.339	45.87358
658.605	45.63615
658.871	45.74942
659.136	45.81817
659.402	45.73314
659.668	45.63076
659.933	45.59267
660.199	45.55911
660.464	45.92177
660.73	45.52725
660.995	46.05739
661.261	45.88138
661.526	46.18334
661.791	46.08715
662.056	46.0395
662.321	45.98226
662.586	46.09185
662.851	46.20244
663.116	46.47168
663.381	45.96801
663.646	46.03928
663.91	46.50201
664.175	46.16188
664.439	46.38391
664.704	46.18759
664.968	46.1161
665.233	46.57907
665.497	46.1038
665.761	46.45391
666.025	46.62386
666.29	46.66269
666.554	46.50143
666.818	46.44673
667.082	45.92781
667.345	46.56251
667.609	46.4081
667.873	46.33882
668.137	46.28624
668.4	46.29918
668.664	46.45393
668.927	46.57369
669.191	46.24234
669.454	46.42554
669.718	46.65423
669.981	45.90147
670.244	46.7223
670.507	46.3916
670.77	46.54667
671.033	46.6747
671.296	46.42442
671.559	46.81598
671.822	46.78655
672.085	46.30097
672.348	46.79664
672.61	46.65753
672.873	46.73527
673.135	46.81034
673.398	46.41719
673.66	46.27711
673.922	46.5826
674.185	46.57328
674.447	46.1882
674.709	46.44516
674.971	46.50642
675.233	46.41068
675.495	46.46667
675.757	46.62865
676.019	46.35296
676.281	46.60174
676.542	46.26227
676.804	46.31537
677.066	46.67783
677.327	46.37863
677.589	46.27567
677.85	46.49424
678.112	46.34329
678.373	46.86465
678.634	46.13844
678.895	46.59033
679.156	46.21736
679.417	46.6278
679.678	46.31138
679.939	46.45928
680.2	46.56806
680.461	46.28395
680.722	46.36717
680.982	46.67235
681.243	46.36612
681.504	46.60952
681.764	46.53733
682.025	46.73721
682.285	46.76466
682.545	46.41888
682.806	46.53127
683.066	46.69528
683.326	46.75868
683.586	46.60542
683.846	46.54339
684.106	46.93768
684.366	46.57551
684.626	46.81114
684.885	47.19334
685.145	47.34778
685.405	47.03758
685.664	46.93906
685.924	47.21228
686.183	47.0593
686.443	47.39924
686.702	47.88579
686.961	47.62444
687.221	47.39832
687.48	47.79691
687.739	47.89821
687.998	47.83651
688.257	48.20543
688.516	48.21803
688.775	48.06102
689.033	48.65132
689.292	48.55808
689.551	48.70211
689.809	48.78601
690.068	49.03135
690.326	49.60507
690.585	49.66868
690.843	49.52784
691.102	49.50889
691.36	49.89436
691.618	50.03738
691.876	50.53049
692.134	50.71064
692.392	50.81701
692.65	50.60874
692.908	51.11787
693.166	51.53608
693.424	51.28296
693.681	51.90244
693.939	51.69207
694.197	52.31449
694.454	52.47602
694.712	52.47541
694.969	52.84749
695.226	53.06185
695.484	52.87864
695.741	53.04947
695.998	53.67552
696.255	53.56615
696.512	53.82147
696.769	54.21236
697.026	54.28733
697.283	54.60062
697.54	54.63523
697.796	55.4237
698.053	55.32569
698.31	55.75856
698.566	55.87168
698.823	55.90964
699.079	56.13879
699.336	56.36149
699.592	56.86325
699.848	57.15206
700.104	57.0864
700.361	57.5109
700.617	58.0038
700.873	57.89421
701.129	58.14249
701.384	57.92724
701.64	58.84868
701.896	58.99356
702.152	59.38154
702.407	58.89172
702.663	59.72511
702.919	59.8435
703.174	59.89585
703.43	59.86707
703.685	60.4629
703.94	60.21883
704.195	60.42977
704.451	60.51543
704.706	60.73683
704.961	60.97487
705.216	61.4317
705.471	61.73588
705.726	61.3197
705.98	61.49025
706.235	61.5998
706.49	61.94747
706.745	62.51937
706.999	62.13935
707.254	62.32302
707.508	62.53855
707.762	62.80709
708.017	62.8136
708.271	62.59345
708.525	62.87538
708.779	63.06512
709.034	63.01889
709.288	63.21389
709.542	63.63935
709.796	63.81082
710.049	63.52905
710.303	64.01511
710.557	63.40294
710.811	63.7794
711.064	64.4444
711.318	64.22097
711.571	64.7671
711.825	64.63781
712.078	64.85058
712.331	65.12242
712.585	65.01749
712.838	65.18018
713.091	64.94297
713.344	65.13195
713.597	64.82125
713.85	64.86311
714.103	64.69006
714.356	65.08032
714.609	64.69016
714.862	64.75662
715.114	64.51598
715.367	64.97634
715.619	64.81015
715.872	64.71645
716.124	64.2948
716.377	64.95394
716.629	64.5723
716.881	64.84825
717.133	64.56
717.386	64.73256
717.638	64.66679
717.89	64.32952
718.142	64.39043
718.394	64.52534
718.645	63.99235
718.897	64.04051
719.149	64.21727
719.401	63.86677
719.652	64.90898
719.904	65.25751
720.155	64.48413
720.407	64.78872
720.658	64.57989
720.909	64.75391
721.161	64.24277
721.412	65.57222
721.663	65.3594
721.914	65.26459
722.165	64.86868
722.416	65.0081
722.667	65.089
722.918	64.94435
723.169	65.94854
723.419	65.33186
723.67	65.38547
723.921	65.31355
724.171	65.34891
724.422	65.71718
724.672	66.42483
724.922	65.55104
725.173	65.9482
725.423	66.0806
725.673	65.94841
725.923	66.16595
726.173	65.96298
726.423	66.15301
726.673	66.5464
726.923	66.51027
727.173	66.18468
727.423	66.61897
727.673	66.38178
727.922	66.46059
728.172	66.54833
728.421	67.28695
728.671	67.22293
728.92	66.74493
729.17	66.41639
729.419	66.47093
729.668	67.22099
729.918	66.72425
730.167	66.89256
730.416	66.49161
730.665	66.97411
730.914	66.94755
731.163	67.02281
731.411	67.3169
731.66	67.54534
731.909	67.33144
732.158	67.30258
732.406	67.33562
732.655	66.70232
732.903	67.21561
733.152	67.30507
733.4	67.23248
733.648	67.01977
733.897	66.94268
734.145	67.15403
734.393	68.03644
734.641	67.09749
734.889	67.39339
735.137	67.38296
735.385	67.88369
735.633	67.29447
735.881	67.3095
736.129	67.58405
736.376	67.39182
736.624	67.47075
736.871	67.53901
737.119	67.21074
737.366	67.53367
737.614	67.69128
737.861	67.33548
738.108	67.16821
738.356	67.43865
738.603	67.96921
738.85	67.87175
739.097	67.61377
739.344	67.72826
739.591	67.12739
739.838	67.80673
740.084	67.33283
740.331	67.7255
740.578	67.57794
740.825	67.40276
741.071	67.86515
741.318	67.74697
741.564	67.98035
741.811	67.80333
742.057	67.75002
742.303	67.66233
742.549	67.70536
742.796	66.85374
743.042	67.92884
743.288	67.56994
743.534	67.38216
743.78	67.88234
744.026	68.36171
744.271	68.31559
744.517	67.72836
744.763	67.85033
745.009	68.08434
745.254	67.82663
745.5	67.50831
745.745	67.8896
745.991	67.62931
746.236	67.55559
746.481	67.65288
746.727	67.73042
746.972	68.25953
747.217	67.76764
747.462	67.75396
747.707	68.237
747.952	67.70317
748.197	67.63579
748.442	67.84308
748.686	67.71219
748.931	68.10628
749.176	67.43522
749.421	67.77219
749.665	68.02326
749.91	67.79307
750.154	67.56734
750.398	67.99918
750.643	68.3443
750.887	68.08499
751.131	68.43536
751.375	67.92104
751.62	68.02943
751.864	67.92768
752.108	67.9898
752.351	68.2613
752.595	68.49018
752.839	68.05384
753.083	67.91245
753.327	67.397
753.57	68.11146
753.814	67.99938
754.057	67.91741
754.301	68.0656
754.544	68.6782
754.788	67.85665
755.031	67.66232
755.274	68.13345
755.517	67.96509
755.761	68.28379
756.004	67.98151
756.247	68.15664
756.49	68.38068
756.732	67.70403
756.975	68.24188
757.218	67.5493
757.461	67.83801
757.704	67.64852
757.946	67.67853
758.189	68.26913
758.431	68.17711
758.674	67.80605
758.916	67.65356
759.158	67.84238
759.401	68.1108
759.643	68.00162
759.885	68.34578
760.127	67.34256
760.369	68.29284
760.611	68.55609
760.853	68.11082
761.095	67.75164
761.337	68.64212
761.579	67.92774
761.82	68.11746
762.062	68.0198
762.304	68.36375
762.545	68.4475
762.787	67.88011
763.028	67.94981
763.269	67.77582
763.511	68.04353
763.752	67.97414
763.993	67.8314
764.234	67.64123
764.475	68.19928
764.716	68.09613
764.957	67.71962
765.198	67.92984
765.439	68.58246
765.68	67.77279
765.921	68.65947
766.161	68.92195
766.402	67.90238
766.643	67.89094
766.883	68.10594
767.124	68.12123
767.364	68.67319
767.604	68.06232
767.845	67.7593
768.085	68.2211
768.325	68.14213
768.565	68.17302
768.805	67.95235
769.045	68.15087
769.285	68.07144
769.525	68.20743
769.765	68.10801
770.005	67.97594
770.244	68.17196
770.484	68.32648
770.724	67.77685
770.963	68.08611
771.203	68.41298
771.442	68.08452
771.682	68.60035
771.921	68.30181
772.16	68.01284
772.399	67.94105
772.639	67.51385
772.878	68.08367
773.117	68.04025
773.356	68.332
773.595	67.94706
773.834	67.51821
774.072	67.90155
774.311	67.59863
774.55	67.79349
774.789	68.01762
775.027	67.73272
775.266	68.16634
775.504	68.19417
775.743	67.59638
775.981	68.68267
776.219	68.12943
776.458	68.3078
776.696	68.29673
776.934	67.81636
777.172	67.71043
777.41	68.09025
777.648	67.56127
777.886	68.0881
778.124	67.50924
778.362	67.37535
778.6	68.13673
778.837	67.03857
779.075	67.49018
779.313	67.66525
779.55	68.20676
779.788	68.08109
780.025	67.9808
780.262	68.0868
780.5	68.25195
780.737	68.63795
780.974	67.85131
781.211	67.90346
781.449	67.85922
781.686	68.35203
781.923	68.19374
782.159	68.07751
782.396	67.54145
782.633	67.89021
782.87	67.65574
783.107	68.02841
783.343	67.71952
783.58	67.65103
783.816	68.41541
784.053	68.42722
784.289	68.06974
784.526	67.47818
784.762	68.18547
784.998	68.06261
785.235	68.20423
785.471	67.5317
785.707	67.94604
785.943	67.62457
786.179	67.65627
786.415	67.41656
786.651	67.80812
786.887	67.75584
787.122	67.71517
787.358	67.81613
787.594	67.44469
787.829	67.21118
788.065	68.06902
788.3	68.22423
788.536	67.8874
788.771	67.83275
789.006	67.70301
789.242	67.78295
789.477	67.62598
789.712	67.4064
789.947	67.40504
790.182	67.83202
790.417	68.11843
790.652	66.66656
790.887	68.53194
791.122	67.38
791.357	67.74008
791.591	67.48791
791.826	67.69006
792.061	67.62147
792.295	68.31783
792.53	67.55259
792.764	68.29863
792.999	68.04704
793.233	67.99415
793.467	67.77393
793.701	67.70613
793.936	67.78691
794.17	68.13229
794.404	67.54083
794.638	67.48839
794.872	67.95383
795.106	67.60427
795.34	67.81384
795.573	68.02183
795.807	67.4543
796.041	67.45306
796.274	67.65984
796.508	68.03395
796.741	68.00155
796.975	68.17503
797.208	67.81818
797.442	67.81909
797.675	67.64655
797.908	67.55982
798.141	67.81634
798.375	67.67909
798.608	67.16189
798.841	67.74021
799.074	67.44391
799.306	67.57775
799.539	67.49079
799.772	67.65488
800.005	67.19848
800.238	68.39554
800.47	67.67199
800.703	68.09408
800.935	67.78431
801.168	67.5772
801.4	67.43989
801.633	68.55522
801.865	67.56721
802.097	67.0246
802.329	67.85337
802.562	67.06056
802.794	67.99763
803.026	67.50067
803.258	68.44707
803.49	68.20074
803.721	68.40083
803.953	66.79574
804.185	67.48268
804.417	67.49919
804.648	68.30868
804.88	68.57541
805.112	67.42787
805.343	67.18335
805.575	67.86401
805.806	67.42184
806.037	67.88891
806.269	67.7339
806.5	67.87606
806.731	67.63
806.962	67.62861
807.193	67.48848
807.424	68.37787
807.655	67.81853
807.886	55.99766
808.117	72.00064
808.348	58.33407
808.578	114.28543
